<?xml version="1.0" encoding="UTF-8"?><PlanDefinition xmlns="http://hl7.org/fhir">
  <id value="low-suicide-risk-order-set"/>
  <!-- TODO: The text narrative below is generated from the structure,  -->
  <text>
    <status value="generated"/>
    <div xmlns="http://www.w3.org/1999/xhtml">
        <!-- need to add xhtml markup of structure-->
         
      </div>
  </text>
  
  <contained>
    <ActivityDefinition>
      <id value="referralToCardiologyConsult"/>
  	  <status value="draft"/>
       <description value="Consider other consult modalities which might be available (e.g., e-consult or other rapidly iterative consult method. A simple consult is included here as the overarching clinical intent."/>
	    <!--  Kind indicates the type of resource that is defined by this activity, a ServiceRequest in this case  -->
	    <kind value="ServiceRequest"/>
  	  <code>
    		<coding>
		      <system value="http://snomed.info/sct"/>
    		  <code value="TSR"/>
		    </coding>
    		<text value="Referral to Cardiology"/>
	    </code>
  	  <timingTiming>
  		  <event>
	    	  <!--  The expression here specifies the value for the timing of the resulting resource. In this case, referralRequest.fulfillmentTime.start  -->
		      <extension url="http://hl7.org/fhir/StructureDefinition/cqif-cqlExpression">
	  		    <valueString value="Now()"/>
    		  </extension>
    		</event>
	    </timingTiming>
      <participant>
        <type value="practitioner"/>
	    </participant>
    </ActivityDefinition>
  </contained>
  <contained>
    <ActivityDefinition>
      <id value="metoprololTartrate25Prescription"/>
      <status value="draft"/>
      <kind value="MedicationRequest"/>
      <productReference>
        <reference value="#metoprololTartrate25Medication"/>
      </productReference>
      <dosage>
        <text value="1 tablet oral 2 time daily"/>
        <timing>
          <repeat>
            <frequency value="2"/>
            <period value="1"/>
            <periodUnit value="d"/>
          </repeat>
        </timing>
        <route>
          <coding>
            <code value="26643006"/>
            <display value="Oral route (qualifier value)"/>
          </coding>
          <text value="Oral route (qualifier value)"/>
        </route>
        <doseQuantity>
          <value value="1"/>
          <unit value="{tbl}"/>
        </doseQuantity>
      </dosage>
       <dynamicValue>
          <path value="medicationRequest.priority"/>
          <expression value="routine"/>
       </dynamicValue>
    </ActivityDefinition>
  </contained>
  <contained>
    <Medication>
      <id value="metoprololTartrate25Medication"/>
      <code>
        <coding>
          <system value="http://www.nlm.nih.gov/research/umls/rxnorm"/>
          <code value="TSR"/>
        </coding>
        <text value="metoprolol tartrate 25 mg"/>
      </code>
        <form>
          <coding>
            <system value="http://snomed.info/sct"/>
            <code value="385055001"/>
            <display value="Tablet dose form"/>
          </coding>
          <text value="Tablet dose form"/>
        </form>
        <ingredient>
          <itemReference>
            <reference value="#metoprololTartrate25Substance"/>
          </itemReference>
          <amount>
            <numerator>
              <value value="25"/>
              <unit value="mg"/>
            </numerator>
            <denominator>
              <value value="1"/>
              <unit value="{tbl}"/>
            </denominator>
          </amount>
        </ingredient>
    </Medication>
  </contained>
  <contained>
    <Substance>
      <id value="metoprololTartrate25Substance"/>
      <code>
        <coding>
          <system value="http://www.nlm.nih.gov/research/umls/rxnorm"/>
          <code value="TSR"/>
        </coding>
        <text value="metoprolol tartrate 25 mg"/>
      </code>
    </Substance>
  </contained>
  <contained>
      <ActivityDefinition>
         <id value="metoprololTartrate50Prescription"/>
         <status value="draft"/>
         <kind value="MedicationRequest"/>
         <productReference>
            <reference value="#metoprololTartrate50Medication"/>
         </productReference>
         <dosage>
            <text value="1 tablet oral 2 time daily"/>
            <timing>
               <repeat>
                  <frequency value="2"/>
                  <period value="1"/>
                  <periodUnit value="d"/>
               </repeat>
            </timing>
            <route>
               <coding>
                  <code value="26643006"/>
                  <display value="Oral route (qualifier value)"/>
               </coding>
               <text value="Oral route (qualifier value)"/>
            </route>
            <doseQuantity>
               <value value="1"/>
               <unit value="{tbl}"/>
            </doseQuantity>
         </dosage>
         <dynamicValue>
            <path value="medicationRequest.priority"/>
            <expression value="routine"/>
         </dynamicValue>
      </ActivityDefinition>
   </contained>
   <contained>
      <Medication>
         <id value="metoprololTartrate50Medication"/>
         <code>
            <coding>
               <system value="http://www.nlm.nih.gov/research/umls/rxnorm"/>
               <code value="TSR"/>
            </coding>
            <text value="metoprolol tartrate 50 mg"/>
         </code>
         <form>
            <coding>
               <system value="http://snomed.info/sct"/>
               <code value="385055001"/>
               <display value="Tablet dose form"/>
            </coding>
            <text value="Tablet dose form"/>
         </form>
         <ingredient>
            <itemReference>
               <reference value="#metoprololTartrate25Substance"/>
            </itemReference>
            <amount>
               <numerator>
                  <value value="50"/>
                  <unit value="mg"/>
               </numerator>
               <denominator>
                  <value value="1"/>
                  <unit value="{tbl}"/>
               </denominator>
            </amount>
         </ingredient>
      </Medication>
   </contained>
   <contained>
      <Substance>
         <id value="metoprololTartrate50Substance"/>
         <code>
            <coding>
               <system value="http://www.nlm.nih.gov/research/umls/rxnorm"/>
               <code value="TSR"/>
            </coding>
            <text value="metoprolol tartrate 50 mg"/>
         </code>
      </Substance>
   </contained>   
   <contained>
      <ActivityDefinition>
         <id value="amlodiponePrescription"/>
         <status value="draft"/>
         <kind value="MedicationRequest"/>
         <productReference>
            <reference value="#amlodipineMedication"/>
         </productReference>
         <dosage>
            <text value="1 tablet oral 1 time daily"/>
            <timing>
               <repeat>
                  <frequency value="1"/>
                  <period value="1"/>
                  <periodUnit value="d"/>
               </repeat>
            </timing>
            <route>
               <coding>
                  <code value="26643006"/>
                  <display value="Oral route (qualifier value)"/>
               </coding>
               <text value="Oral route (qualifier value)"/>
            </route>
            <doseQuantity>
               <value value="1"/>
               <unit value="{tbl}"/>
            </doseQuantity>
         </dosage>
         <dynamicValue>
            <path value="medicationRequest.priority"/>
            <expression value="routine"/>
         </dynamicValue>
      </ActivityDefinition>
   </contained>
   <contained>
      <Medication>
         <id value="amlodipineMedication"/>
         <code>
            <coding>
               <system value="http://www.nlm.nih.gov/research/umls/rxnorm"/>
               <code value="TSR"/>
            </coding>
            <text value="amlodipine 5 mg"/>
         </code>
         <form>
            <coding>
               <system value="http://snomed.info/sct"/>
               <code value="385055001"/>
               <display value="Tablet dose form"/>
            </coding>
            <text value="Tablet dose form"/>
         </form>
         <ingredient>
            <itemReference>
               <reference value="#amlodipineSubstance"/>
            </itemReference>
            <amount>
               <numerator>
                  <value value="5"/>
                  <unit value="mg"/>
               </numerator>
               <denominator>
                  <value value="1"/>
                  <unit value="{tbl}"/>
               </denominator>
            </amount>
         </ingredient>
      </Medication>
   </contained>
   <contained>
      <Substance>
         <id value="amlodipineSubstance"/>
         <code>
            <coding>
               <system value="http://www.nlm.nih.gov/research/umls/rxnorm"/>
               <code value="TSR"/>
            </coding>
            <text value="amlodipine"/>
         </code>
      </Substance>
   </contained>
   <contained>
      <ActivityDefinition>
         <id value="nitroglycerinPrescription"/>
         <status value="draft"/>
         <kind value="MedicationRequest"/>
         <productReference>
            <reference value="#nitroglycerinMedication"/>
         </productReference>
         <dosage>
            <text value="nitroglycerin 0.4 mg tablet sub-lingual every 5 minutes as needed for chest pain; maximum 3 tablets"/>
            <timing>
               <repeat>
                  <frequency value="1"/>
                  <period value="5"/>
                  <periodUnit value="min"/>
               </repeat>
            </timing>
            <route>
               <coding>
                  <code value="TSR"/>
                  <display value="sub-lingual route (qualifier value)"/>
               </coding>
               <text value="Sub-lingual route (qualifier value)"/>
            </route>
            <doseQuantity>
               <value value="1"/>
               <unit value="{tbl}"/>
            </doseQuantity>
            <maxDosePerAdministration>
               <value value="3"/>
               <unit value="{tbl}"/>
            </maxDosePerAdministration>
         </dosage>
         <dynamicValue>
            <path value="medicationRequest.priority"/>
            <expression value="routine"/>
         </dynamicValue>
      </ActivityDefinition>
   </contained>
   <contained>
      <Medication>
         <id value="nitroglycerinMedication"/>
         <code>
            <coding>
               <system value="http://www.nlm.nih.gov/research/umls/rxnorm"/>
               <code value="TSR"/>
            </coding>
            <text value="nitroglycerin 0.4 mg tablet"/>
         </code>
         <form>
            <coding>
               <system value="http://snomed.info/sct"/>
               <code value="385055001"/>
               <display value="Tablet dose form"/>
            </coding>
            <text value="Tablet dose form"/>
         </form>
         <ingredient>
            <itemReference>
               <reference value="#nitroglycerinSubstance"/>
            </itemReference>
            <amount>
               <numerator>
                  <value value="0.4"/>
                  <unit value="mg"/>
               </numerator>
               <denominator>
                  <value value="1"/>
                  <unit value="{tbl}"/>
               </denominator>
            </amount>
         </ingredient>
      </Medication>
   </contained>
   <contained>
      <Substance>
         <id value="nitroglycerinSubstance"/>
         <code>
            <coding>
               <system value="http://www.nlm.nih.gov/research/umls/rxnorm"/>
               <code value="TSR"/>
            </coding>
            <text value="nitroglycerin"/>
         </code>
      </Substance>
   </contained>  
  <url value="http://va.gov/kas/orderset/B5-Cardiology-ChestPainCAD"/>
  <identifier>
     <!--identifierName="B5" -->
    <use value="official"/>
     <system value="urn:va.gov:kbs:knart:artifact:r1"/>
     <value value="bb7ccea6-9744-4743-854a-bcffd87191f6"/>
  </identifier>
   <!--identifierName="Contract: VA118-16-D-1008, Task Order (TO): VA-118-16-F-1008-0007, CLIN0004AG" -->
   <identifier>
      <system value="urn:va.gov:kbs:contract:VA118-16-D-1008:to:VA-118-16-F-1008-0007"/>
      <value value="CLIN0004AG"/>
   </identifier>
   <!--identifierName="Jira KP-914" -->
   <identifier>
      <system value="urn:cognitivemedicine.com:lab:jira"/>
      <value value="KP-914"/>
   </identifier>
  <version value="0.1"/>
  <name value="ChestPainCoronaryArteryDiseaseOrderSetKNART"/>
  <title value="Chest Pain (CP) / Coronary Artery Disease (CAD) Order Set KNART"/>
  <type>
    <coding>
      <system value="http://hl7.org/fhir/plan-definition-type"/>
      <code value="order-set"/>
      <display value="Order Set"/>
    </coding>
  </type> 
  <status value="active"/>
  <date value="2017-08-29"/>
  <publisher value="Department of Veterans Affairs"/>
  <description value="The Cardiology chest pain (CP) and coronary artery disease (CAD) group of KNARTs are
    intended to assist primary care providers in the management of adult patients with stable
    chest pain (with or without known CAD); aid in determining when a cardiology consultation is
    appropriate; provide guidance for initial noninvasive diagnostic orders (stress testing) and
    provide a structured documentation template for the process. Stable patients with cardiac
    chest pain require risk stratification, office-based workup, initiation of disease-specific
    medications, and subspecialty referral to a cardiologist."/>
  <usage value="The Cardiology chest pain (CP) and coronary artery disease (CAD) group of KNARTs are intended to assist primary care providers in the management of adult patients with stable chest pain (with or without known CAD); aid in determining when a cardiology consultation is appropriate; provide guidance for initial noninvasive diagnostic orders (stress testing) and provide a structured documentation template for the process. Stable patients with cardiac chest pain require risk stratification, office-based workup, initiation of disease-specific medications, and subspecialty referral to a cardiologist. This context excludes emergent patients (new/ongoing/unstable pattern CP). Included are those patients with stable CP with or without known CAD, to be considered for evaluation by cardiology."/>
 
  <useContext>
    <code>
      <system value="http://hl7.org/fhir/usage-context-type"/>
      <code value="focus"/>
    </code>
    <valueCodeableConcept>
      <coding>
        <system value="http://snomed.info/sct"/>
        <code value="look up value"/>
        <display value="appropriate snomed condition"/>
      </coding>
    </valueCodeableConcept>
  </useContext>
  
  <contributor>
    <type value="author"/>
    <name value="Bruce Bray MD"/>
     <!-- No place for affiliation in the contributor, left here as comments
        <affiliation>
               <name
                 value="Professor, Cardiovascular Medicine, University of Utah School of Medicine; Staff
                 Cardiologist, Salt Lake City VA Medical Center (VAMC)"
                        />
           </affiliation> -->
  </contributor>
  <contributor>
     <type value="author"/>
     <name value="Scott Wall MD"/> 
     <!-- No place for affiliation in the contributor, left here as comments    
     <affiliation>
        <name
           value="Assistant Professor, Cardiovascular Medicine, University of Utah; School of
           Medicine Staff Cardiologist, Electrophysiology, Salt Lake City VAMC"
        />
     </affiliation> -->
  </contributor>
   <contributor>
      <type value="author"/>
      <name value="Aiden Abidov MD, PhD"/> 
      <!-- No place for affiliation in the contributor, left here as comments    
     <affiliation>
        <name
           value="Professor of Medicine, Wayne State University; Section Chief, Cardiology, John Dingell VAMC" />
     </affiliation> -->
   </contributor>
   <copyright value="&#xA9; Copyright Cognitive Medical Systems, Inc. 9444 Waples Street Suite 300 San Diego, CA 92121"/>
 
   <relatedArtifact>
    <type value="derived-from"/>
      <display value="Cardiology: Chest Pain (CP) / Coronary Artery Disease (CAD) Clinical Content White Paper"/>
    <url value="NEED A URL HERE"/>
  </relatedArtifact>
   
   <relatedArtifact>
      <type value="justification"/>
      <!-- used the description from HeD example for display here-->
      <display value="Outcome CVD (coronary death, myocardial infarction, coronary insufficiency, angina, ischemic stroke, hemorrhagic stroke, transient ischemic attack, peripheral artery disease, heart failure)"/>
      <citation value="Cardiovascular disease
         (10-year risk) [Internet].: Framingham Heart Study; cited 2017]. Available from: https://www.framinghamheartstudy.org/risk-functions/cardiovascular-disease/10-year-risk.php."/>     
      <url value="https://www.framinghamheartstudy.org/risk-functions/cardiovascular-disease/10-year-risk.php"/>
   </relatedArtifact>
   
   <relatedArtifact>
      <type value="justification"/>
  <!--  no identifier field available, this is an example of what is in the source OS
     <identifiers>
         <identifier root="https://doi.org/10.1161/CIRCULATIONAHA.107.699579"
            identifierName="DOI"/>
         <identifier root="D'Agostino RB et al., 2008"
            identifierName="LocalDocBook"/>
      </identifiers> -->
      <!-- used the title from HeD example for display here-->
      <display value="General cardiovascular risk profile for use in primary care: the Framingham Heart Study"/>
      <citation value="Cardiovascular disease
         (10-year risk) [Internet].: Framingham Heart Study; cited 2017]. Available from: https://www.framinghamheartstudy.org/risk-functions/cardiovascular-disease/10-year-risk.php."/>     
      <url value="https://www.framinghamheartstudy.org/risk-functions/cardiovascular-disease/10-year-risk.php"/>
   </relatedArtifact>
   
   <relatedArtifact>
      <type value="justification"/>
      <!--  no identifier field available, this is an example of what is in the source OS
     <identifiers>
         <identifier root="10.1016/j.jtcvs.2014.11.002" identifierName="DOI"/>
         <identifier root="Fihn et al., 2015" identifierName="LocalDocBook"/>
      </identifiers> -->
      <!-- used the title from HeD example for display here-->
      <display value="2014 ACC/AHA/AATS/PCNA/SCAI/STS focused update of the guideline for the diagnosis and management of patients with stable ischemic heart disease: a report of the American College of Cardiology/American Heart Association Task Force on Practice Guidelines, and the American Association for Thoracic Surgery, Preventive Cardiovascular Nurses Association, Society for Cardiovascular Angiography and Interventions, and Society of Thoracic Surgeons"/>
      <!-- here is the description from the source OS, no spot for it
        <description
            value="A report of the American College of Cardiology/American Heart Association Task Force on Practice Guidelines, and the American Association for Thoracic Surgery, Preventive Cardiovascular Nurses Association, Society for Cardiovascular Angiography and Interventions, and Society of Thoracic Surgeons"/>  
      -->
      <citation value="Fihn SD, Blankenship JC, Alexander KP, Bittl JA, Byrne JG, Fletcher BJ, et al. 2014 ACC/AHA/AATS/PCNA/SCAI/STS focused update of the guideline for the diagnosis and management of patients with stable ischemic heart disease: A report of the american college of cardiology/american heart association task force on practice guidelines, and the american association for thoracic surgery, preventive cardiovascular nurses association, society for cardiovascular angiography and interventions, and society of thoracic surgeons. J Thorac Cardiovasc Surg. 2015 March 01;149(3):5."/>     
      <url value="NEED A URL HERE"/>
   </relatedArtifact>
   
   <relatedArtifact>
      <type value="justification"/>
      <!--  no identifier field available, this is an example of what is in the source OS
     <identifiers>
        <identifier root="https://doi.org/10.1016/S0735-1097(02)02164-2"
                   identifierName="DOI"/>
         <identifier root="Gibbons et al., 2002" identifierName="LocalDocBook"/>
     </identifiers> -->
      <!-- used the title from HeD example for display here-->
      <display value="ACC/AHA 2002 guideline update for exercise testing: summary article: A report of the American college of cardiology/American heart association task force on practice guidelines (committee to update the 1997 exercise testing guidelines)"/>
      <!-- there was no description in this specific entry -->
      <citation value="Gibbons RJ, Balady GJ, Bricker JT, Chaitman BR, Fletcher GF, Froelicher VF, et al. ACC/AHA 2002 guideline update for exercise testing: Summary article: A report of the american college of cardiology/american heart association task force on practice guidelines (committee to update the 1997 exercise testing guidelines). Circulation. 2002 October 01;106(14):1883-92."/>     
      <url value="NEED A URL HERE"/>
   </relatedArtifact>
   
   <relatedArtifact>
      <type value="justification"/>
      <!--  no identifier field available, this is an example of what is in the source OS
     <identifiers>
       <identifier root="b4064039-2345-4227-b83d-54dc13a838d3"/>
       <identifier root="NLM 2017a" identifierName="LocalDocBook"/>
      </identifiers> -->
      <!-- used the title from HeD example for display here-->
      <display value="LABEL: ASPIRIN 81 MG- aspirin tablet, coated"/>
      <!-- there was no description in this specific entry -->
      <citation value="Label: ASPIRIN 81 MG- aspirin tablet, coated [Internet].: National Library of Medicine; 2017. Available from: https://dailymed.nlm.nih.gov/dailymed/drugInfo.cfm?setid=b4064039-2345-4227-b83d-54dc13a838d3."/>     
      <url value="https://dailymed.nlm.nih.gov/dailymed/drugInfo.cfm?setid=b4064039-2345-4227-b83d-54dc13a838d3"/>
   </relatedArtifact>
 
   <relatedArtifact>
      <type value="justification"/>
      <!--  no identifier field available, this is an example of what is in the source OS
     <identifiers>
         <identifier root="edae8df1-caf9-ff72-1304-5ae8b355f8e7"/>
         <identifier root="NLM 2017b" identifierName="LocalDocBook"/>
     </identifiers> -->
      <!-- used the title from HeD example for display here-->
      <display value="LABEL: CLOPIDOGREL- clopidogrel bisulfate tablet, film coated"/>
      <!-- there was no description in this specific entry -->
      <citation value="LABEL: CLOPIDOGREL- clopidogrel bisulfate tablet, film coated [Internet].: National Library of Medicine; 2017. Available from: https://dailymed.nlm.nih.gov/dailymed/drugInfo.cfm?setid=edae8df1-caf9-ff72-1304-5ae8b355f8e7."/>     
      <url value="https://dailymed.nlm.nih.gov/dailymed/drugInfo.cfm?setid=7fe85155-bc00-406b-b097-e8aece187a8a"/>
   </relatedArtifact>
 
   <relatedArtifact>
      <type value="justification"/>
      <!--  no identifier field available, this is an example of what is in the source OS
     <identifiers>
        <identifier root="7fe85155-bc00-406b-b097-e8aece187a8a"/>
        <identifier root="NLM 2017c" identifierName="LocalDocBook"/>
      </identifiers> -->
      <!-- used the title from HeD example for display here-->
      <display value="LABEL: LIPITOR- atorvastatin calcium tablet, film coated"/>
      <!-- there was no description in this specific entry -->
      <citation value="LABEL: LIPITOR- atorvastatin calcium tablet, film coated [Internet].: National Library of Medicine; 2017. Available from: https://dailymed.nlm.nih.gov/dailymed/drugInfo.cfm?setid=7fe85155-bc00-406b-b097-e8aece187a8a."/>
      <url value="https://dailymed.nlm.nih.gov/dailymed/drugInfo.cfm?setid=7fe85155-bc00-406b-b097-e8aece187a8a"/>
   </relatedArtifact>
 
   <relatedArtifact>
      <type value="justification"/>
      <!--  no identifier field available, this is an example of what is in the source OS
     <identifiers>
       <identifier root="2d948600-35d8-4490-983b-918bdce488c8"/>
       <identifier root="NLM 2017d" identifierName="LocalDocBook"/>
      </identifiers> -->
      <!-- used the title from HeD example for display here-->
      <display value="LABEL: METOPROLOL SUCCINATE EXTENDED-RELEASE - metoprolol succinate tablet, film coated, extended release"/>
      <!-- there was no description in this specific entry -->
      <citation value="LABEL: LIPITOR- atorvastatin calcium tablet, film coated [Internet].: National Library of Medicine; 2017. Available from: https://dailymed.nlm.nih.gov/dailymed/drugInfo.cfm?setid=7fe85155-bc00-406b-b097-e8aece187a8a."/>
      <url value="https://dailymed.nlm.nih.gov/dailymed/drugInfo.cfm?setid=2d948600-35d8-4490-983b-918bdce488c8"/>
   </relatedArtifact>

   <relatedArtifact>
      <type value="justification"/>
      <!--  no identifier field available, this is an example of what is in the source OS
     <identifiers>
       <identifier root="67bf2a15-b115-47ac-ae28-ce2dafd6b5c9"/>
       <identifier root="NLM 2017e" identifierName="LocalDocBook"/>
     </identifiers> -->
      <!-- used the title from HeD example for display here-->
      <display value="LABEL: NITROGLYCERIN- nitroglycerin tablet"/>
      <!-- there was no description in this specific entry -->
      <citation value="LABEL: NITROGLYCERIN- nitroglycerin tablet [Internet].: National Library of Medicine; 2017. Available from: https://dailymed.nlm.nih.gov/dailymed/drugInfo.cfm?setid=67bf2a15-b115-47ac-ae28-ce2dafd6b5c9."/>
      <url value="https://dailymed.nlm.nih.gov/dailymed/drugInfo.cfm?setid=67bf2a15-b115-47ac-ae28-ce2dafd6b5c9"/>
   </relatedArtifact>

   <relatedArtifact>
      <type value="justification"/>
      <!--  no identifier field available, this is an example of what is in the source OS
      <identifiers>
        <identifier root="5c1c694c-4b08-469e-b538-08e69df06146"/>
        <identifier root="NLM 2017g" identifierName="LocalDocBook"/>
      </identifiers> -->
      <!-- used the title from HeD example for display here-->
      <display value="LABEL: SIMVASTATIN - simvastatin tablet"/>
      <!-- there was no description in this specific entry -->
      <citation value="LABEL: SIMVASTATIN - simvastatin tablet [Internet].: National Library of Medicine; 2017. Available from: https://dailymed.nlm.nih.gov/dailymed/drugInfo.cfm?setid=5c1c694c-4b08-469e-b538-08e69df06146."/>
      <url value="https://dailymed.nlm.nih.gov/dailymed/drugInfo.cfm?setid=5c1c694c-4b08-469e-b538-08e69df06146"/>
   </relatedArtifact>

   <relatedArtifact>
      <type value="justification"/>
      <!--  no identifier field available, this is an example of what is in the source OS
       <identifiers>
          <identifier root="10.1136/hrt.2009.190066" identifierName="DOI"/>
          <identifier root="Skinner et al., 2010" identifierName="LocalDocBook"/>
        </identifiers> -->
      <!-- used the title from HeD example for display here-->
      <display value="Chest Pain Guideline Development Group. NICE guidance. Chest
         pain of recent onset: assessment and diagnosis of recent onset chest pain or discomfort of suspected cardiac origin."/>
      <!-- there was no description in this specific entry -->
      <citation value="Skinner JS, Smeeth L, Kendall JM, Adams PC, Timmis A, Chest Pain Guideline Development Group. NICE guidance. chest pain of recent onset: Assessment and diagnosis of recent onset chest pain or discomfort of suspected cardiac origin. Heart. 2010 June 01;96(12):974-8."/>
      <url value="http://heart.bmj.com/content/96/12/974.long"/>
   </relatedArtifact>

   <library>
    <reference value="Library/cardiology-chestPain-logic"/>
    <display value="CardiologyChestPainLogic"/>
  </library>
  <!--  Actions  -->
  <action>
    <action>
       <!--  Patient disposition and triage group  -->
    </action>
    <action>
      <title value="Consults and Referrals"/>
      <groupingBehavior value="logical-group"/>
      <selectionBehavior value="any"/>
      <action>
         <textEquivalent value="Referral to cardiology to evaluate chest pain (routine)"/>
        <definition>
           <reference value="#referralToCardiologyConsult"/>
        </definition>
        <!--  These expressions will be evaluated with the library referenced above as an include  -->
        <dynamicValue>
          <path value="timing.event"/>
          <expression value="Now()"/>
        </dynamicValue>
        <dynamicValue>
          <path value="specialty"/>
          <!--  This expression is code selector syntax in CQL, returning the code from the NPI provider taxonomy  -->
           <expression value="Code &#39;261QM0850X&#39; from CardiologyChestPainLogic.&quot;NUCC Provider Taxonomy&quot; display &#39;Adult Mental Health&#39;"/>
        </dynamicValue>
        <dynamicValue>
		  <!--  The fulfillmentTime element of the resulting ServiceRequest will be set to the result of the ServiceRequestFulfillmentTime expression defined in the SuicideRiskLogic library  -->
          <path value="occurrenceDateTime"/>
           <expression value="CardiologyChestPainLogic.ServiceRequestFulfillmentTime"/>
        </dynamicValue>
        <dynamicValue>
          <path value="subject"/>
           <expression value="CardiologyChestPainLogic.Patient"/>
        </dynamicValue>
        <dynamicValue>
          <path value="requester.agent"/>
           <expression value="CardiologyChestPainLogic.Practitioner"/>
        </dynamicValue>
        <dynamicValue>
          <path value="reasonCode"/>
           <expression value="CardiologyChestPainLogic.CardiologyReferralReason"/>
        </dynamicValue>
        <dynamicValue>
          <path value="reasonReference"/>
           <expression value="CardiologyChestPainLogic.RiskAssessment"/>
        </dynamicValue>
      </action>
       <action>
          <!--  need a collect information action for goal-->
       </action>
    </action>
     <action>
        <!--  Imaging and ECG group  -->
     </action>
     <action>
        <!--  Laboratory Tests  -->
     </action>
     <action>
        <!--  Cardiac Risk Stratification  -->
     </action>
     <action>
      <title value="Medications"/>
       <description
          value="Consider the following medications for stable patients to be initiated prior to the cardiology consultation."/>
       <action>
          <groupingBehavior value="logical-group"/>
            <selectionBehavior value="at-most-one"/>
       </action>  
      <action>
        <title value="Antianginal Therapy"/>
          
        <groupingBehavior value="logical-group"/>
        <selectionBehavior value="at-most-one"/>
        <action>
            <textEquivalent value="metoprolol tartrate 25 mg tablet 1 tablet oral 2 time daily"/>
            <definition>
              <reference value="#metoprololTartrate25Prescription"/>
            </definition>
            <dynamicValue>
              <path value="status"/>
              <expression value="&#39;draft&#39;"/>
            </dynamicValue>
            <dynamicValue>
              <path value="patient"/>
               <expression value="CardiologyChestPainLogic.Patient"/>
            </dynamicValue>
            <dynamicValue>
              <path value="prescriber"/>
               <expression value="CardiologyChestPainLogic.Practitioner"/>
            </dynamicValue>
           </action>
         <action>
            <textEquivalent value="metoprolol tartrate 50 mg tablet 1 tablet oral 2 time daily"/>
            <definition>
               <reference value="#metoprololTartrate50Prescription"/>
            </definition>
            <dynamicValue>
               <path value="status"/>
               <expression value="&#39;draft&#39;"/>
            </dynamicValue>
            <dynamicValue>
               <path value="patient"/>
               <expression value="CardiologyChestPainLogic.Patient"/>
            </dynamicValue>
            <dynamicValue>
               <path value="prescriber"/>
               <expression value="CardiologyChestPainLogic.Practitioner"/>
            </dynamicValue>
         </action>
         <action>
            <textEquivalent value="amlodipine 5  tablet 1 tablet oral  daily"/>
            <definition>
               <reference value="#amlodipinePrescription"/>
            </definition>
            <dynamicValue>
               <path value="status"/>
               <expression value="&#39;draft&#39;"/>
            </dynamicValue>
            <dynamicValue>
               <path value="patient"/>
               <expression value="CardiologyChestPainLogic.Patient"/>
            </dynamicValue>
            <dynamicValue>
               <path value="prescriber"/>
               <expression value="CardiologyChestPainLogic.Practitioner"/>
            </dynamicValue>
         </action>     
      </action>
       <action>
          <title value="Nitroglycerin" />
          <groupingBehavior value="logical-group"/>
          <selectionBehavior value="at-most-one"/>
          <!-- This is a subgroup with one element -->
          <action>
             <textEquivalent value="nitroglycerin 0.4 mg tablet sub-lingual every 5 minutes as needed for chest pain; maximum 3 tablets"/>
             <definition>
                <reference value="#nitroglycerinPrescription"/>
             </definition>
             <dynamicValue>
                <path value="status"/>
                <expression value="&#39;draft&#39;"/>
             </dynamicValue>
             <dynamicValue>
                <path value="patient"/>
                <expression value="CardiologyChestPainLogic.Patient"/>
             </dynamicValue>
             <dynamicValue>
                <path value="prescriber"/>
                <expression value="CardiologyChestPainLogic.Practitioner"/>
             </dynamicValue>
          </action>
       </action>
       <!-- Original order set has sections for Antiplatelet Therapy and Risk Factor Reduction not encoded here -->
    </action>
  </action>
</PlanDefinition>